* Sea-Bird SBE37SM-RS232  Data File:
* Software version SeatermV2 2.6.3.104
* Temperature SN = 7247
* Conductivity SN = 7247
* System UpLoad Time = Sep 19 2018 13:06:47
* sample interval = 30 seconds
* <ApplicationData>
* <Seaterm232>
* <SoftwareVersion>2.6.3.104</SoftwareVersion>
* <BuildDate>30-Jun-2017</BuildDate>
* </Seaterm232>
* </ApplicationData>
* <InstrumentState>
* <HardwareData DeviceType='SBE37SM-RS232' SerialNumber='03707247'>
*
*    <Manufacturer>Sea-Bird Electronics, Inc.</Manufacturer>
*
*    <FirmwareVersion>3.1</FirmwareVersion>
*
*    <FirmwareDate>Jan 20 2012 17:33:01</FirmwareDate>
*
*    <PCBAssembly>41647</PCBAssembly>
*
*    <PCBAssembly>41624A</PCBAssembly>
*
*    <PCBAssembly>41611D</PCBAssembly>
*
*    <MfgDate>17 Jul 2009</MfgDate>
*
*    <FirmwareLoader>SBE 37 FirmwareLoader V 1.0</FirmwareLoader>
*
*    <InternalSensors>
*
*       <Sensor id='Temperature'>
*
*          <type>temperature-1</type>
*
*          <SerialNumber>03707247</SerialNumber>
*
*       </Sensor>
*
*       <Sensor id='Conductivity'>
*
*          <type>conductivity-1</type>
*
*          <SerialNumber>03707247</SerialNumber>
*
*       </Sensor>
*
*    </InternalSensors>
*
* </HardwareData>
* <StatusData DeviceType='SBE37SM-RS232' SerialNumber='03707247'>
*
*    <DateTime>2018-09-19T12:56:21</DateTime>
*
*    <EventSummary numEvents='5'/>
*
*    <Power>
*
*       <vMain> 6.91</vMain>
*
*       <vLith> 3.00</vLith>
*
*    </Power>
*
*    <MemorySummary>
*
*       <Bytes>573600</Bytes>
*
*       <Samples>57360</Samples>
*
*       <SamplesFree>781500</SamplesFree>
*
*       <SampleLength>10</SampleLength>
*
*    </MemorySummary>
*
*    <AutonomousSampling>no, stop command</AutonomousSampling>
*
* </StatusData>
* <ConfigurationData DeviceType='SBE37SM-RS232' SerialNumber='03707247'>
*
*    <PressureInstalled>no</PressureInstalled>
*
*    <ReferencePressure>0.000000e+00</ReferencePressure>
*
*    <PumpInstalled>no</PumpInstalled>
*
*    <SampleDataFormat>converted engineering</SampleDataFormat>
*
*    <OutputSalinity>yes</OutputSalinity>
*
*    <OutputSV>yes</OutputSV>
*
*    <TxRealTime>no</TxRealTime>
*
*    <SampleInterval>30</SampleInterval>
*
*    <SyncMode>no</SyncMode>
*
* </ConfigurationData>
* <CalibrationCoefficients DeviceType='SBE37SM-RS232' SerialNumber='03707247'>
*
*    <Calibration format='TEMP1' id='Temperature'>
*
*       <SerialNum>03707247</SerialNum>
*
*       <CalDate>29-Jul-15</CalDate>
*
*       <A0>-9.381890e-05</A0>
*
*       <A1>2.995794e-04</A1>
*
*       <A2>-3.688277e-06</A2>
*
*       <A3>1.805792e-07</A3>
*
*    </Calibration>
*
*    <Calibration format='WBCOND0' id='Conductivity'>
*
*       <SerialNum>03707247</SerialNum>
*
*       <CalDate>29-Jul-15</CalDate>
*
*       <G>-1.018195e+00</G>
*
*       <H>1.499275e-01</H>
*
*       <I>-2.693427e-04</I>
*
*       <J>4.295166e-05</J>
*
*       <PCOR>-9.570000e-08</PCOR>
*
*       <TCOR>3.250000e-06</TCOR>
*
*       <WBOTC>2.554617e-07</WBOTC>
*
*    </Calibration>
*
* </CalibrationCoefficients>
* <EventCounters DeviceType='SBE37SM-RS232' SerialNumber='03707247'>
*
*    <EventSummary numEvents='5'/>
*
*    <Event type='PON reset' count='5'/>
*
* </EventCounters></InstrumentState>
# nquan = 8
# nvalues = 57360                                 
# units = specified
# name 0 = timeS: Time, Elapsed [seconds]
# name 1 = cond0S/m: Conductivity [S/m]
# name 2 = sal00: Salinity, Practical [PSU], moored pressure = 0.00000e+000 [dbar]
# name 3 = tv268C: Temperature [IPTS-68, deg C]
# name 4 = potemp068C: Potential Temperature [IPTS-68, deg C]
# name 5 = prE: Pressure [psi]
# name 6 = density00: Density [density, kg/m^3], moored pressure = 0.00000e+000 [dbar]
# name 7 = flag:  0.000e+00
# span 0 =      0.000, 1720770.00                 
# span 1 =   0.000028,   3.240067                 
# span 2 =     0.0104,    22.0769                 
# span 3 =    -1.0483,    23.1874                 
# span 4 =    -1.0483,    23.1874                 
# span 5 =      0.000,      0.000                 
# span 6 =   998.0053,  1017.6904                 
# span 7 = 0.0000e+00, 0.0000e+00                 
# interval = seconds: 30
# start_time = Aug 30 2018 14:56:08 [Instrument's time stamp, first data scan]
# bad_flag = -9.990e-29
# <Sensors count="2" >
#   <sensor Channel="1" >
#     <!-- Count, Temperature -->
#     <TemperatureSensor SensorID="58" >
#       <SerialNumber>7247</SerialNumber>
#       <CalibrationDate>29-Jul-15</CalibrationDate>
#       <A0>-9.38189000e-005</A0>
#       <A1>2.99579400e-004</A1>
#       <A2>-3.68827700e-006</A2>
#       <A3>1.80579200e-007</A3>
#       <Slope>1.00000000</Slope>
#       <Offset>0.0000</Offset>
#     </TemperatureSensor>
#   </sensor>
#   <sensor Channel="2" >
#     <!-- Frequency 0, Conductivity -->
#     <ConductivitySensor SensorID="3" >
#       <SerialNumber>7247</SerialNumber>
#       <CalibrationDate>29-Jul-15</CalibrationDate>
#       <UseG_J>1</UseG_J>
#       <!-- Cell const and series R are applicable only for wide range sensors. -->
#       <SeriesR>0.0000</SeriesR>
#       <CellConst>2000.0000</CellConst>
#       <ConductivityType>1</ConductivityType>
#       <Coefficients equation="0" >
#         <A>0.00000000e+000</A>
#         <B>0.00000000e+000</B>
#         <C>0.00000000e+000</C>
#         <D>0.00000000e+000</D>
#         <M>0.0</M>
#         <CPcor>-9.57000000e-008</CPcor>
#       </Coefficients>
#       <Coefficients equation="1" >
#         <G>-1.01819500e+000</G>
#         <H>1.49927500e-001</H>
#         <I>-2.69342700e-004</I>
#         <J>4.29516600e-005</J>
#         <CPcor>-9.57000000e-008</CPcor>
#         <CTcor>3.2500e-006</CTcor>
#         <!-- WBOTC not applicable unless ConductivityType = 1. -->
#         <WBOTC>2.55461700e-007</WBOTC>
#       </Coefficients>
#       <Slope>1.00000000</Slope>
#       <Offset>0.00000</Offset>
#     </ConductivitySensor>
#   </sensor>
# </Sensors>
# datcnv_date = Sep 19 2018 13:10:02, 7.26.7.114 [datcnv_vars = 7]
# datcnv_in = C:\Users\m300660\Desktop\sbe37sm-rs232_03707247_2018_09_19.hex C:\Users\m300660\Desktop\SBE37SM-RS232_03707247_2018_09_19.xmlcon
# datcnv_skipover = 0
# file_type = ascii
*END*
      0.000   0.000034     0.0104    20.9649    20.9649      0.000   998.0104  0.000e+00
     30.000   0.000031     0.0104    20.9881    20.9881      0.000   998.0053  0.000e+00
     60.000   0.000028     0.0104    20.9167    20.9167      0.000   998.0208  0.000e+00
     90.000   2.765204    19.7754    18.3785    18.3785      0.000  1013.5682  0.000e+00
    120.000   2.745219    19.6189    18.3774    18.3774      0.000  1013.4495  0.000e+00
    150.000   2.738038    19.5626    18.3773    18.3773      0.000  1013.4067  0.000e+00
    180.000   2.727645    19.4809    18.3775    18.3775      0.000  1013.3445  0.000e+00
    210.000   2.732432    19.5183    18.3778    18.3778      0.000  1013.3729  0.000e+00
    240.000   2.729428    19.4948    18.3777    18.3777      0.000  1013.3550  0.000e+00
    270.000   2.729281    19.4937    18.3775    18.3775      0.000  1013.3542  0.000e+00
    300.000   2.726788    19.4741    18.3775    18.3775      0.000  1013.3394  0.000e+00
    330.000   2.726759    19.4737    18.3781    18.3781      0.000  1013.3389  0.000e+00
    360.000   2.731692    19.5122    18.3784    18.3784      0.000  1013.3682  0.000e+00
    390.000   2.732115    19.5155    18.3785    18.3785      0.000  1013.3706  0.000e+00
    420.000   2.730660    19.5039    18.3788    18.3788      0.000  1013.3617  0.000e+00
    450.000   2.725592    19.4643    18.3785    18.3785      0.000  1013.3317  0.000e+00
    480.000   2.726501    19.4716    18.3781    18.3781      0.000  1013.3373  0.000e+00
    510.000   2.730290    19.5014    18.3780    18.3780      0.000  1013.3600  0.000e+00
    540.000   2.730319    19.5014    18.3785    18.3785      0.000  1013.3599  0.000e+00
    570.000   2.722966    19.4438    18.3783    18.3783      0.000  1013.3162  0.000e+00
    600.000   2.731147    19.5077    18.3789    18.3789      0.000  1013.3646  0.000e+00
    630.000   2.728325    19.4856    18.3787    18.3787      0.000  1013.3479  0.000e+00
    660.000   2.725997    19.4673    18.3789    18.3789      0.000  1013.3339  0.000e+00
    690.000   2.732502    19.5181    18.3795    18.3795      0.000  1013.3723  0.000e+00
    720.000   2.729175    19.4920    18.3794    18.3794      0.000  1013.3526  0.000e+00
    750.000   2.726841    19.4734    18.3799    18.3799      0.000  1013.3383  0.000e+00
    780.000   2.733066    19.5224    18.3796    18.3796      0.000  1013.3756  0.000e+00
    810.000   2.731845    19.5126    18.3801    18.3801      0.000  1013.3681  0.000e+00
    840.000   2.729791    19.4962    18.3807    18.3807      0.000  1013.3555  0.000e+00
    870.000   2.726788    19.4725    18.3810    18.3810      0.000  1013.3374  0.000e+00
    900.000   2.729527    19.4941    18.3807    18.3807      0.000  1013.3539  0.000e+00
    930.000   2.729017    19.4883    18.3845    18.3845      0.000  1013.3486  0.000e+00
    960.000   2.728155    19.4824    18.3827    18.3827      0.000  1013.3445  0.000e+00
    990.000   2.729551    19.4933    18.3829    18.3829      0.000  1013.3527  0.000e+00
   1020.000   2.726178    19.4664    18.3839    18.3839      0.000  1013.3321  0.000e+00
   1050.000   2.727914    19.4799    18.3841    18.3841      0.000  1013.3423  0.000e+00
   1080.000   2.731311    19.5063    18.3845    18.3845      0.000  1013.3623  0.000e+00
   1110.000   2.731059    19.5041    18.3850    18.3850      0.000  1013.3605  0.000e+00
   1140.000   2.731329    19.5063    18.3849    18.3849      0.000  1013.3622  0.000e+00
   1170.000   2.728219    19.4819    18.3849    18.3849      0.000  1013.3436  0.000e+00
   1200.000   2.731587    19.5082    18.3852    18.3852      0.000  1013.3635  0.000e+00
   1230.000   2.732749    19.5184    18.3829    18.3829      0.000  1013.3718  0.000e+00
   1260.000   2.773567    19.8410    18.3785    18.3785      0.000  1013.6181  0.000e+00
   1290.000   2.795765    20.0147    18.3805    18.3805      0.000  1013.7498  0.000e+00
   1320.000   2.804215    20.0807    18.3817    18.3817      0.000  1013.7996  0.000e+00
   1350.000   2.810392    20.1289    18.3825    18.3825      0.000  1013.8361  0.000e+00
   1380.000   2.808673    20.1150    18.3831    18.3831      0.000  1013.8254  0.000e+00
   1410.000   2.811792    20.1398    18.3827    18.3827      0.000  1013.8444  0.000e+00
   1440.000   2.809248    20.1192    18.3840    18.3840      0.000  1013.8284  0.000e+00
   1470.000   2.812391    20.1436    18.3845    18.3845      0.000  1013.8469  0.000e+00
   1500.000   2.808999    20.1169    18.3845    18.3845      0.000  1013.8266  0.000e+00
   1530.000   2.812628    20.1451    18.3853    18.3853      0.000  1013.8478  0.000e+00
   1560.000   2.810961    20.1320    18.3853    18.3853      0.000  1013.8378  0.000e+00
   1590.000   2.818693    20.1928    18.3854    18.3854      0.000  1013.8841  0.000e+00
   1620.000   2.819720    20.2007    18.3860    18.3860      0.000  1013.8899  0.000e+00
   1650.000   2.814117    20.1563    18.3865    18.3865      0.000  1013.8560  0.000e+00
   1680.000   2.814633    20.1603    18.3865    18.3865      0.000  1013.8591  0.000e+00
   1710.000   2.821175    20.2115    18.3872    18.3872      0.000  1013.8979  0.000e+00
   1740.000   2.821519    20.2141    18.3875    18.3875      0.000  1013.8998  0.000e+00
   1770.000   2.818360    20.1891    18.3876    18.3876      0.000  1013.8808  0.000e+00
   1800.000   2.822167    20.2190    18.3879    18.3879      0.000  1013.9034  0.000e+00
   1830.000   2.817363    20.1807    18.3888    18.3888      0.000  1013.8741  0.000e+00
   1860.000   2.813310    20.1485    18.3894    18.3894      0.000  1013.8495  0.000e+00
   1890.000   2.824572    20.2372    18.3894    18.3894      0.000  1013.9170  0.000e+00
   1920.000   2.821193    20.2104    18.3898    18.3898      0.000  1013.8964  0.000e+00
   1950.000   2.822654    20.2216    18.3905    18.3905      0.000  1013.9048  0.000e+00
   1980.000   2.823063    20.2246    18.3908    18.3908      0.000  1013.9070  0.000e+00
   2010.000   2.823764    20.2305    18.3900    18.3900      0.000  1013.9117  0.000e+00
   2040.000   2.827116    20.2564    18.3911    18.3911      0.000  1013.9312  0.000e+00
   2070.000   2.822196    20.2173    18.3917    18.3917      0.000  1013.9013  0.000e+00
   2100.000   2.823574    20.2280    18.3921    18.3921      0.000  1013.9093  0.000e+00
   2130.000   2.824655    20.2365    18.3921    18.3921      0.000  1013.9158  0.000e+00
   2160.000   2.827662    20.2599    18.3928    18.3928      0.000  1013.9334  0.000e+00
   2190.000   2.831152    20.2873    18.3930    18.3930      0.000  1013.9542  0.000e+00
   2220.000   2.826248    20.2484    18.3936    18.3936      0.000  1013.9245  0.000e+00
   2250.000   2.831830    20.2923    18.3936    18.3936      0.000  1013.9579  0.000e+00
   2280.000   2.825767    20.2443    18.3942    18.3942      0.000  1013.9212  0.000e+00
   2310.000   2.829113    20.2705    18.3944    18.3944      0.000  1013.9411  0.000e+00
   2340.000   2.830783    20.2837    18.3944    18.3944      0.000  1013.9512  0.000e+00
   2370.000   2.832579    20.2975    18.3950    18.3950      0.000  1013.9615  0.000e+00
   2400.000   2.826295    20.2480    18.3950    18.3950      0.000  1013.9239  0.000e+00
   2430.000   2.830956    20.2847    18.3950    18.3950      0.000  1013.9518  0.000e+00
   2460.000   2.832918    20.3000    18.3954    18.3954      0.000  1013.9633  0.000e+00
   2490.000   2.827330    20.2559    18.3957    18.3957      0.000  1013.9297  0.000e+00
   2520.000   2.833715    20.3064    18.3952    18.3952      0.000  1013.9682  0.000e+00
   2550.000   2.830688    20.2825    18.3953    18.3953      0.000  1013.9500  0.000e+00
   2580.000   2.835732    20.3222    18.3953    18.3953      0.000  1013.9803  0.000e+00
   2610.000   2.836863    20.3310    18.3956    18.3956      0.000  1013.9869  0.000e+00
   2640.000   2.833680    20.3058    18.3958    18.3958      0.000  1013.9677  0.000e+00
   2670.000   2.826937    20.2530    18.3951    18.3951      0.000  1013.9277  0.000e+00
   2700.000   2.836291    20.3263    18.3960    18.3960      0.000  1013.9832  0.000e+00
   2730.000   2.833269    20.3027    18.3956    18.3956      0.000  1013.9653  0.000e+00
   2760.000   2.834745    20.3144    18.3954    18.3954      0.000  1013.9743  0.000e+00
   2790.000   2.832591    20.2970    18.3962    18.3962      0.000  1013.9609  0.000e+00
   2820.000   2.838803    20.3458    18.3967    18.3967      0.000  1013.9978  0.000e+00
   2850.000   2.836464    20.3277    18.3960    18.3960      0.000  1013.9843  0.000e+00
   2880.000   2.834614    20.3132    18.3958    18.3958      0.000  1013.9733  0.000e+00
   2910.000   2.834108    20.3094    18.3955    18.3955      0.000  1013.9704  0.000e+00
   2940.000   2.827918    20.2608    18.3950    18.3950      0.000  1013.9336  0.000e+00
   2970.000   2.838166    20.3419    18.3943    18.3943      0.000  1013.9955  0.000e+00
   3000.000   2.839249    20.3506    18.3940    18.3940      0.000  1014.0021  0.000e+00
   3030.000   2.835780    20.3233    18.3939    18.3939      0.000  1013.9814  0.000e+00
   3060.000   2.833257    20.3048    18.3911    18.3911      0.000  1013.9680  0.000e+00
   3090.000   2.838285    20.3441    18.3917    18.3917      0.000  1013.9977  0.000e+00
   3120.000   2.900815    20.8412    18.3849    18.3849      0.000  1014.3773  0.000e+00
   3150.000   0.127224     0.7621    16.8513    16.8513      0.000   999.3896  0.000e+00
   3180.000   0.059937     0.3669    14.7350    14.7350      0.000   999.4258  0.000e+00
   3210.000   0.046836     0.2884    14.1694    14.1694      0.000   999.4470  0.000e+00
   3240.000   2.892785    20.7780    18.3843    18.3843      0.000  1014.3294  0.000e+00
   3270.000   2.904615    20.8709    18.3856    18.3856      0.000  1014.3997  0.000e+00
   3300.000   2.902652    20.8553    18.3856    18.3856      0.000  1014.3879  0.000e+00
   3330.000   2.907028    20.8906    18.3843    18.3843      0.000  1014.4150  0.000e+00
   3360.000   2.909791    20.9126    18.3840    18.3840      0.000  1014.4318  0.000e+00
   3390.000   2.910134    20.9158    18.3830    18.3830      0.000  1014.4345  0.000e+00
   3420.000   2.910608    20.9199    18.3824    18.3824      0.000  1014.4377  0.000e+00
   3450.000   2.910741    20.9214    18.3815    18.3815      0.000  1014.4391  0.000e+00
   3480.000   2.910825    20.9225    18.3806    18.3806      0.000  1014.4401  0.000e+00
   3510.000   2.911065    20.9253    18.3789    18.3789      0.000  1014.4426  0.000e+00
   3540.000   2.911191    20.9261    18.3792    18.3792      0.000  1014.4432  0.000e+00
   3570.000   2.911402    20.9286    18.3776    18.3776      0.000  1014.4454  0.000e+00
   3600.000   2.911540    20.9297    18.3775    18.3775      0.000  1014.4463  0.000e+00
   3630.000   2.911618    20.9306    18.3770    18.3770      0.000  1014.4471  0.000e+00
   3660.000   2.911720    20.9322    18.3753    18.3753      0.000  1014.4487  0.000e+00
   3690.000   2.911894    20.9337    18.3752    18.3752      0.000  1014.4499  0.000e+00
   3720.000   2.911955    20.9344    18.3747    18.3747      0.000  1014.4505  0.000e+00
   3750.000   2.911997    20.9351    18.3741    18.3741      0.000  1014.4512  0.000e+00
   3780.000   2.912069    20.9365    18.3724    18.3724      0.000  1014.4526  0.000e+00
   3810.000   2.912279    20.9381    18.3725    18.3725      0.000  1014.4538  0.000e+00
   3840.000   2.912285    20.9388    18.3712    18.3712      0.000  1014.4546  0.000e+00
   3870.000   2.912369    20.9402    18.3698    18.3698      0.000  1014.4560  0.000e+00
   3900.000   2.912459    20.9410    18.3696    18.3696      0.000  1014.4567  0.000e+00
   3930.000   2.912706    20.9437    18.3681    18.3681      0.000  1014.4591  0.000e+00
   3960.000   2.912856    20.9451    18.3677    18.3677      0.000  1014.4603  0.000e+00
   3990.000   2.912910    20.9459    18.3670    18.3670      0.000  1014.4610  0.000e+00
   4020.000   2.912982    20.9468    18.3664    18.3664      0.000  1014.4618  0.000e+00
   4050.000   2.913108    20.9482    18.3655    18.3655      0.000  1014.4631  0.000e+00
   4080.000   2.913223    20.9497    18.3643    18.3643      0.000  1014.4645  0.000e+00
   4110.000   2.913283    20.9501    18.3644    18.3644      0.000  1014.4648  0.000e+00
   4140.000   2.913367    20.9509    18.3643    18.3643      0.000  1014.4654  0.000e+00
   4170.000   2.913481    20.9522    18.3635    18.3635      0.000  1014.4665  0.000e+00
   4200.000   2.913625    20.9533    18.3636    18.3636      0.000  1014.4674  0.000e+00
   4230.000   2.913716    20.9541    18.3633    18.3633      0.000  1014.4681  0.000e+00
   4260.000   2.913794    20.9551    18.3627    18.3627      0.000  1014.4689  0.000e+00
   4290.000   2.913884    20.9558    18.3627    18.3627      0.000  1014.4695  0.000e+00
   4320.000   2.913938    20.9565    18.3622    18.3622      0.000  1014.4701  0.000e+00
   4350.000   2.914100    20.9575    18.3626    18.3626      0.000  1014.4708  0.000e+00
   4380.000   2.914178    20.9585    18.3619    18.3619      0.000  1014.4718  0.000e+00
   4410.000   2.914226    20.9591    18.3615    18.3615      0.000  1014.4723  0.000e+00
   4440.000   2.914461    20.9612    18.3611    18.3611      0.000  1014.4740  0.000e+00
   4470.000   2.914527    20.9617    18.3610    18.3610      0.000  1014.4744  0.000e+00
   4500.000   2.914617    20.9627    18.3604    18.3604      0.000  1014.4753  0.000e+00
   4530.000   2.914725    20.9633    18.3610    18.3610      0.000  1014.4756  0.000e+00
   4560.000   2.914779    20.9639    18.3606    18.3606      0.000  1014.4762  0.000e+00
   4590.000   2.914834    20.9641    18.3611    18.3611      0.000  1014.4762  0.000e+00
   4620.000   2.914930    20.9651    18.3606    18.3606      0.000  1014.4771  0.000e+00
   4650.000   2.915032    20.9657    18.3610    18.3610      0.000  1014.4775  0.000e+00
   4680.000   2.915146    20.9667    18.3608    18.3608      0.000  1014.4783  0.000e+00
   4710.000   2.915248    20.9675    18.3610    18.3610      0.000  1014.4788  0.000e+00
   4740.000   2.915315    20.9679    18.3612    18.3612      0.000  1014.4790  0.000e+00
   4770.000   2.915357    20.9683    18.3610    18.3610      0.000  1014.4794  0.000e+00
   4800.000   2.915411    20.9686    18.3612    18.3612      0.000  1014.4796  0.000e+00
   4830.000   2.915453    20.9687    18.3616    18.3616      0.000  1014.4796  0.000e+00
   4860.000   2.915525    20.9694    18.3614    18.3614      0.000  1014.4801  0.000e+00
   4890.000   2.915597    20.9701    18.3612    18.3612      0.000  1014.4807  0.000e+00
   4920.000   2.915663    20.9705    18.3614    18.3614      0.000  1014.4810  0.000e+00
   4950.000   2.915753    20.9710    18.3619    18.3619      0.000  1014.4812  0.000e+00
   4980.000   2.915856    20.9719    18.3617    18.3617      0.000  1014.4820  0.000e+00
   5010.000   2.916000    20.9731    18.3616    18.3616      0.000  1014.4829  0.000e+00
   5040.000   2.916162    20.9743    18.3617    18.3617      0.000  1014.4838  0.000e+00
   5070.000   2.916313    20.9752    18.3622    18.3622      0.000  1014.4844  0.000e+00
   5100.000   2.916367    20.9759    18.3618    18.3618      0.000  1014.4850  0.000e+00
   5130.000   2.916439    20.9764    18.3619    18.3619      0.000  1014.4854  0.000e+00
   5160.000   2.916487    20.9764    18.3627    18.3627      0.000  1014.4852  0.000e+00
   5190.000   2.916571    20.9772    18.3623    18.3623      0.000  1014.4859  0.000e+00
   5220.000   2.916745    20.9783    18.3629    18.3629      0.000  1014.4866  0.000e+00
   5250.000   2.916824    20.9790    18.3627    18.3627      0.000  1014.4872  0.000e+00
   5280.000   2.916860    20.9795    18.3624    18.3624      0.000  1014.4876  0.000e+00
   5310.000   2.916998    20.9804    18.3628    18.3628      0.000  1014.4882  0.000e+00
   5340.000   2.917016    20.9804    18.3631    18.3631      0.000  1014.4881  0.000e+00
   5370.000   2.917070    20.9809    18.3628    18.3628      0.000  1014.4886  0.000e+00
   5400.000   2.917106    20.9813    18.3626    18.3626      0.000  1014.4889  0.000e+00
   5430.000   2.917142    20.9812    18.3633    18.3633      0.000  1014.4887  0.000e+00
   5460.000   2.917239    20.9821    18.3632    18.3632      0.000  1014.4894  0.000e+00
   5490.000   2.917389    20.9831    18.3635    18.3635      0.000  1014.4901  0.000e+00
   5520.000   2.917401    20.9832    18.3634    18.3634      0.000  1014.4902  0.000e+00
   5550.000   2.917491    20.9837    18.3639    18.3639      0.000  1014.4905  0.000e+00
   5580.000   2.917527    20.9841    18.3636    18.3636      0.000  1014.4909  0.000e+00
   5610.000   2.917702    20.9854    18.3639    18.3639      0.000  1014.4917  0.000e+00
   5640.000   2.917732    20.9857    18.3637    18.3637      0.000  1014.4920  0.000e+00
   5670.000   2.917768    20.9856    18.3644    18.3644      0.000  1014.4918  0.000e+00
   5700.000   2.917894    20.9868    18.3642    18.3642      0.000  1014.4927  0.000e+00
   5730.000   2.917978    20.9872    18.3645    18.3645      0.000  1014.4930  0.000e+00
   5760.000   2.918050    20.9877    18.3648    18.3648      0.000  1014.4933  0.000e+00
   5790.000   2.918105    20.9878    18.3655    18.3655      0.000  1014.4932  0.000e+00
   5820.000   2.918147    20.9884    18.3649    18.3649      0.000  1014.4938  0.000e+00
   5850.000   2.918177    20.9886    18.3650    18.3650      0.000  1014.4939  0.000e+00
   5880.000   2.918279    20.9891    18.3656    18.3656      0.000  1014.4941  0.000e+00
   5910.000   2.918351    20.9897    18.3655    18.3655      0.000  1014.4947  0.000e+00
   5940.000   2.918393    20.9898    18.3660    18.3660      0.000  1014.4946  0.000e+00
   5970.000   2.918471    20.9908    18.3653    18.3653      0.000  1014.4955  0.000e+00
   6000.000   2.918544    20.9909    18.3661    18.3661      0.000  1014.4955  0.000e+00
   6030.000   2.918622    20.9916    18.3661    18.3661      0.000  1014.4959  0.000e+00
   6060.000   2.918736    20.9924    18.3662    18.3662      0.000  1014.4966  0.000e+00
   6090.000   2.918748    20.9925    18.3662    18.3662      0.000  1014.4966  0.000e+00
   6120.000   2.918826    20.9928    18.3669    18.3669      0.000  1014.4967  0.000e+00
   6150.000   2.918910    20.9936    18.3666    18.3666      0.000  1014.4974  0.000e+00
   6180.000   2.918965    20.9936    18.3674    18.3674      0.000  1014.4972  0.000e+00
   6210.000   2.919037    20.9940    18.3677    18.3677      0.000  1014.4975  0.000e+00
   6240.000   2.919133    20.9949    18.3674    18.3674      0.000  1014.4982  0.000e+00
   6270.000   2.919181    20.9954    18.3673    18.3673      0.000  1014.4986  0.000e+00
   6300.000   2.919235    20.9958    18.3673    18.3673      0.000  1014.4989  0.000e+00
   6330.000   2.919283    20.9957    18.3682    18.3682      0.000  1014.4986  0.000e+00
   6360.000   2.919313    20.9961    18.3680    18.3680      0.000  1014.4989  0.000e+00
   6390.000   2.919410    20.9966    18.3685    18.3685      0.000  1014.4992  0.000e+00
   6420.000   2.919452    20.9969    18.3686    18.3686      0.000  1014.4994  0.000e+00
   6450.000   2.919470    20.9967    18.3692    18.3692      0.000  1014.4991  0.000e+00
   6480.000   2.919548    20.9976    18.3687    18.3687      0.000  1014.4999  0.000e+00
   6510.000   2.919578    20.9978    18.3687    18.3687      0.000  1014.5001  0.000e+00
   6540.000   2.919644    20.9981    18.3692    18.3692      0.000  1014.5002  0.000e+00
   6570.000   2.919759    20.9990    18.3692    18.3692      0.000  1014.5009  0.000e+00
   6600.000   2.919837    20.9994    18.3697    18.3697      0.000  1014.5011  0.000e+00
   6630.000   2.919885    21.0000    18.3692    18.3692      0.000  1014.5016  0.000e+00
   6660.000   2.919975    21.0003    18.3699    18.3699      0.000  1014.5017  0.000e+00
   6690.000   2.920011    21.0003    18.3705    18.3705      0.000  1014.5016  0.000e+00
   6720.000   2.920065    21.0007    18.3706    18.3706      0.000  1014.5019  0.000e+00
   6750.000   2.920180    21.0017    18.3704    18.3704      0.000  1014.5027  0.000e+00
   6780.000   2.920222    21.0019    18.3706    18.3706      0.000  1014.5028  0.000e+00
   6810.000   2.920294    21.0024    18.3708    18.3708      0.000  1014.5031  0.000e+00
   6840.000   2.920360    21.0026    18.3714    18.3714      0.000  1014.5031  0.000e+00
   6870.000   2.920408    21.0032    18.3710    18.3710      0.000  1014.5037  0.000e+00
   6900.000   2.920444    21.0032    18.3716    18.3716      0.000  1014.5035  0.000e+00
   6930.000   2.920498    21.0035    18.3719    18.3719      0.000  1014.5037  0.000e+00
   6960.000   2.920547    21.0040    18.3716    18.3716      0.000  1014.5042  0.000e+00
   6990.000   2.920589    21.0042    18.3719    18.3719      0.000  1014.5042  0.000e+00
   7020.000   2.920667    21.0045    18.3725    18.3725      0.000  1014.5043  0.000e+00
   7050.000   2.920703    21.0048    18.3724    18.3724      0.000  1014.5046  0.000e+00
   7080.000   2.920751    21.0050    18.3728    18.3728      0.000  1014.5047  0.000e+00
   7110.000   2.920841    21.0056    18.3730    18.3730      0.000  1014.5051  0.000e+00
   7140.000   2.920926    21.0062    18.3732    18.3732      0.000  1014.5054  0.000e+00
   7170.000   2.920968    21.0066    18.3731    18.3731      0.000  1014.5058  0.000e+00
   7200.000   2.921028    21.0066    18.3741    18.3741      0.000  1014.5055  0.000e+00
   7230.000   2.921142    21.0076    18.3738    18.3738      0.000  1014.5064  0.000e+00
   7260.000   2.921214    21.0081    18.3739    18.3739      0.000  1014.5068  0.000e+00
   7290.000   2.921250    21.0085    18.3737    18.3737      0.000  1014.5071  0.000e+00
   7320.000   2.921274    21.0082    18.3746    18.3746      0.000  1014.5067  0.000e+00
   7350.000   2.921311    21.0086    18.3745    18.3745      0.000  1014.5070  0.000e+00
   7380.000   2.921383    21.0089    18.3749    18.3749      0.000  1014.5072  0.000e+00
   7410.000   2.921401    21.0091    18.3748    18.3748      0.000  1014.5073  0.000e+00
   7440.000   2.921449    21.0094    18.3751    18.3751      0.000  1014.5075  0.000e+00
   7470.000   2.921503    21.0096    18.3754    18.3754      0.000  1014.5076  0.000e+00
   7500.000   2.921557    21.0097    18.3761    18.3761      0.000  1014.5075  0.000e+00
   7530.000   2.921623    21.0103    18.3760    18.3760      0.000  1014.5079  0.000e+00
   7560.000   2.921654    21.0105    18.3760    18.3760      0.000  1014.5081  0.000e+00
   7590.000   2.921702    21.0106    18.3766    18.3766      0.000  1014.5080  0.000e+00
   7620.000   2.921744    21.0114    18.3757    18.3757      0.000  1014.5088  0.000e+00
   7650.000   2.921798    21.0113    18.3767    18.3767      0.000  1014.5085  0.000e+00
   7680.000   2.921876    21.0118    18.3769    18.3769      0.000  1014.5089  0.000e+00
   7710.000   2.921906    21.0118    18.3775    18.3775      0.000  1014.5087  0.000e+00
   7740.000   2.921996    21.0124    18.3777    18.3777      0.000  1014.5091  0.000e+00
   7770.000   2.922027    21.0125    18.3779    18.3779      0.000  1014.5092  0.000e+00
   7800.000   2.922093    21.0128    18.3783    18.3783      0.000  1014.5094  0.000e+00
   7830.000   2.922117    21.0129    18.3785    18.3785      0.000  1014.5093  0.000e+00
   7860.000   2.922219    21.0137    18.3785    18.3785      0.000  1014.5100  0.000e+00
   7890.000   2.922255    21.0141    18.3783    18.3783      0.000  1014.5103  0.000e+00
   7920.000   2.922321    21.0141    18.3793    18.3793      0.000  1014.5101  0.000e+00
   7950.000   2.922412    21.0151    18.3787    18.3787      0.000  1014.5110  0.000e+00
   7980.000   2.922448    21.0149    18.3797    18.3797      0.000  1014.5106  0.000e+00
   8010.000   2.922478    21.0156    18.3789    18.3789      0.000  1014.5113  0.000e+00
   8040.000   2.922514    21.0154    18.3797    18.3797      0.000  1014.5110  0.000e+00
   8070.000   2.922568    21.0155    18.3805    18.3805      0.000  1014.5109  0.000e+00
   8100.000   2.922604    21.0155    18.3809    18.3809      0.000  1014.5108  0.000e+00
   8130.000   2.922652    21.0159    18.3809    18.3809      0.000  1014.5111  0.000e+00
   8160.000   2.922688    21.0161    18.3811    18.3811      0.000  1014.5112  0.000e+00
   8190.000   2.922761    21.0166    18.3813    18.3813      0.000  1014.5115  0.000e+00
   8220.000   2.922845    21.0172    18.3814    18.3814      0.000  1014.5120  0.000e+00
   8250.000   2.922917    21.0175    18.3818    18.3818      0.000  1014.5121  0.000e+00
   8280.000   2.922983    21.0179    18.3821    18.3821      0.000  1014.5124  0.000e+00
   8310.000   2.923019    21.0181    18.3823    18.3823      0.000  1014.5125  0.000e+00
   8340.000   2.923080    21.0184    18.3828    18.3828      0.000  1014.5126  0.000e+00
   8370.000   2.923134    21.0188    18.3828    18.3828      0.000  1014.5129  0.000e+00
   8400.000   2.923152    21.0189    18.3829    18.3829      0.000  1014.5129  0.000e+00
   8430.000   2.923212    21.0190    18.3835    18.3835      0.000  1014.5129  0.000e+00
   8460.000   2.923224    21.0188    18.3842    18.3842      0.000  1014.5125  0.000e+00
   8490.000   2.923266    21.0194    18.3837    18.3837      0.000  1014.5131  0.000e+00
   8520.000   2.923356    21.0196    18.3847    18.3847      0.000  1014.5130  0.000e+00
   8550.000   2.923392    21.0201    18.3842    18.3842      0.000  1014.5135  0.000e+00
   8580.000   2.923435    21.0202    18.3848    18.3848      0.000  1014.5135  0.000e+00
   8610.000   2.923477    21.0203    18.3852    18.3852      0.000  1014.5134  0.000e+00
   8640.000   2.923531    21.0206    18.3854    18.3854      0.000  1014.5136  0.000e+00
   8670.000   2.923579    21.0210    18.3854    18.3854      0.000  1014.5139  0.000e+00
   8700.000   2.923639    21.0212    18.3860    18.3860      0.000  1014.5140  0.000e+00
   8730.000   2.923681    21.0215    18.3860    18.3860      0.000  1014.5142  0.000e+00
   8760.000   2.923742    21.0218    18.3863    18.3863      0.000  1014.5143  0.000e+00
   8790.000   2.923796    21.0219    18.3870    18.3870      0.000  1014.5143  0.000e+00
   8820.000   2.923820    21.0221    18.3869    18.3869      0.000  1014.5145  0.000e+00
   8850.000   2.923844    21.0219    18.3877    18.3877      0.000  1014.5141  0.000e+00
   8880.000   2.923922    21.0226    18.3876    18.3876      0.000  1014.5146  0.000e+00
   8910.000   2.923958    21.0228    18.3878    18.3878      0.000  1014.5148  0.000e+00
   8940.000   2.924000    21.0230    18.3879    18.3879      0.000  1014.5150  0.000e+00
   8970.000   2.924048    21.0231    18.3885    18.3885      0.000  1014.5148  0.000e+00
   9000.000   2.924073    21.0231    18.3889    18.3889      0.000  1014.5148  0.000e+00
   9030.000   2.924139    21.0237    18.3888    18.3888      0.000  1014.5152  0.000e+00
   9060.000   2.924187    21.0238    18.3894    18.3894      0.000  1014.5152  0.000e+00
   9090.000   2.924223    21.0240    18.3895    18.3895      0.000  1014.5153  0.000e+00
   9120.000   2.924241    21.0239    18.3899    18.3899      0.000  1014.5152  0.000e+00
   9150.000   2.924277    21.0239    18.3906    18.3906      0.000  1014.5150  0.000e+00
   9180.000   2.924343    21.0243    18.3908    18.3908      0.000  1014.5152  0.000e+00
   9210.000   2.924361    21.0246    18.3905    18.3905      0.000  1014.5155  0.000e+00
   9240.000   2.924379    21.0244    18.3912    18.3912      0.000  1014.5152  0.000e+00
   9270.000   2.924446    21.0247    18.3917    18.3917      0.000  1014.5153  0.000e+00
   9300.000   2.924470    21.0249    18.3916    18.3916      0.000  1014.5155  0.000e+00
   9330.000   2.924542    21.0253    18.3918    18.3918      0.000  1014.5158  0.000e+00
   9360.000   2.924548    21.0251    18.3923    18.3923      0.000  1014.5155  0.000e+00
   9390.000   2.924632    21.0257    18.3925    18.3925      0.000  1014.5159  0.000e+00
   9420.000   2.924650    21.0257    18.3928    18.3928      0.000  1014.5159  0.000e+00
   9450.000   2.924717    21.0260    18.3932    18.3932      0.000  1014.5160  0.000e+00
   9480.000   2.924765    21.0264    18.3931    18.3931      0.000  1014.5163  0.000e+00
   9510.000   2.924783    21.0264    18.3936    18.3936      0.000  1014.5162  0.000e+00
   9540.000   2.924849    21.0267    18.3939    18.3939      0.000  1014.5163  0.000e+00
   9570.000   2.924861    21.0266    18.3942    18.3942      0.000  1014.5163  0.000e+00
   9600.000   2.924927    21.0270    18.3945    18.3945      0.000  1014.5165  0.000e+00
   9630.000   2.924969    21.0272    18.3948    18.3948      0.000  1014.5166  0.000e+00
   9660.000   2.925017    21.0276    18.3949    18.3949      0.000  1014.5168  0.000e+00
   9690.000   2.925030    21.0273    18.3956    18.3956      0.000  1014.5164  0.000e+00
   9720.000   2.925066    21.0275    18.3957    18.3957      0.000  1014.5166  0.000e+00
   9750.000   2.925108    21.0278    18.3959    18.3959      0.000  1014.5167  0.000e+00
   9780.000   2.925156    21.0279    18.3963    18.3963      0.000  1014.5167  0.000e+00
   9810.000   2.925198    21.0278    18.3972    18.3972      0.000  1014.5165  0.000e+00
   9840.000   2.925216    21.0280    18.3971    18.3971      0.000  1014.5166  0.000e+00
   9870.000   2.925252    21.0283    18.3971    18.3971      0.000  1014.5169  0.000e+00
   9900.000   2.925288    21.0283    18.3975    18.3975      0.000  1014.5168  0.000e+00
   9930.000   2.925330    21.0285    18.3978    18.3978      0.000  1014.5169  0.000e+00
   9960.000   2.925373    21.0287    18.3981    18.3981      0.000  1014.5170  0.000e+00
   9990.000   2.925409    21.0286    18.3989    18.3989      0.000  1014.5167  0.000e+00
  10020.000   2.925451    21.0290    18.3987    18.3987      0.000  1014.5170  0.000e+00
  10050.000   2.925481    21.0290    18.3992    18.3992      0.000  1014.5169  0.000e+00
  10080.000   2.925535    21.0292    18.3996    18.3996      0.000  1014.5170  0.000e+00
  10110.000   2.925565    21.0296    18.3994    18.3994      0.000  1014.5173  0.000e+00
  10140.000   2.925595    21.0295    18.4001    18.4001      0.000  1014.5171  0.000e+00
  10170.000   2.925668    21.0298    18.4005    18.4005      0.000  1014.5172  0.000e+00
  10200.000   2.925680    21.0300    18.4005    18.4005      0.000  1014.5174  0.000e+00
  10230.000   2.925704    21.0300    18.4008    18.4008      0.000  1014.5173  0.000e+00
  10260.000   2.925752    21.0300    18.4015    18.4015      0.000  1014.5172  0.000e+00
  10290.000   2.925776    21.0301    18.4016    18.4016      0.000  1014.5172  0.000e+00
  10320.000   2.925812    21.0303    18.4019    18.4019      0.000  1014.5172  0.000e+00
  10350.000   2.925848    21.0304    18.4023    18.4023      0.000  1014.5172  0.000e+00
  10380.000   2.925884    21.0304    18.4027    18.4027      0.000  1014.5172  0.000e+00
  10410.000   2.925926    21.0307    18.4028    18.4028      0.000  1014.5174  0.000e+00
  10440.000   2.925956    21.0307    18.4034    18.4034      0.000  1014.5172  0.000e+00
  10470.000   2.925981    21.0311    18.4028    18.4028      0.000  1014.5177  0.000e+00
  10500.000   2.926017    21.0310    18.4037    18.4037      0.000  1014.5174  0.000e+00
  10530.000   2.926047    21.0312    18.4038    18.4038      0.000  1014.5175  0.000e+00
  10560.000   2.926083    21.0311    18.4045    18.4045      0.000  1014.5173  0.000e+00
  10590.000   2.926107    21.0312    18.4046    18.4046      0.000  1014.5174  0.000e+00
  10620.000   2.926143    21.0314    18.4049    18.4049      0.000  1014.5174  0.000e+00
  10650.000   2.926167    21.0312    18.4055    18.4055      0.000  1014.5172  0.000e+00
  10680.000   2.926191    21.0312    18.4060    18.4060      0.000  1014.5170  0.000e+00
  10710.000   2.926209    21.0314    18.4058    18.4058      0.000  1014.5173  0.000e+00
  10740.000   2.926239    21.0315    18.4061    18.4061      0.000  1014.5172  0.000e+00
  10770.000   2.926263    21.0314    18.4067    18.4067      0.000  1014.5170  0.000e+00
  10800.000   2.926318    21.0320    18.4063    18.4063      0.000  1014.5176  0.000e+00
  10830.000   2.926342    21.0320    18.4068    18.4068      0.000  1014.5175  0.000e+00
  10860.000   2.926372    21.0317    18.4077    18.4077      0.000  1014.5171  0.000e+00
  10890.000   2.926426    21.0319    18.4083    18.4083      0.000  1014.5171  0.000e+00
  10920.000   2.926426    21.0319    18.4083    18.4083      0.000  1014.5171  0.000e+00
  10950.000   2.926474    21.0321    18.4086    18.4086      0.000  1014.5171  0.000e+00
  10980.000   2.926498    21.0323    18.4085    18.4085      0.000  1014.5173  0.000e+00
  11010.000   2.926540    21.0323    18.4093    18.4093      0.000  1014.5171  0.000e+00
  11040.000   2.926546    21.0326    18.4087    18.4087      0.000  1014.5175  0.000e+00
  11070.000   2.926595    21.0325    18.4097    18.4097      0.000  1014.5172  0.000e+00
  11100.000   2.926643    21.0329    18.4096    18.4096      0.000  1014.5175  0.000e+00
  11130.000   2.926661    21.0327    18.4103    18.4103      0.000  1014.5172  0.000e+00
  11160.000   2.926661    21.0323    18.4111    18.4111      0.000  1014.5167  0.000e+00
  11190.000   2.926703    21.0327    18.4110    18.4110      0.000  1014.5170  0.000e+00
  11220.000   2.926733    21.0326    18.4116    18.4116      0.000  1014.5169  0.000e+00
  11250.000   2.926757    21.0326    18.4120    18.4120      0.000  1014.5167  0.000e+00
  11280.000   2.926793    21.0329    18.4119    18.4119      0.000  1014.5170  0.000e+00
  11310.000   2.926805    21.0327    18.4125    18.4125      0.000  1014.5168  0.000e+00
  11340.000   2.926865    21.0331    18.4127    18.4127      0.000  1014.5170  0.000e+00
  11370.000   2.926878    21.0330    18.4130    18.4130      0.000  1014.5169  0.000e+00
  11400.000   2.926890    21.0329    18.4135    18.4135      0.000  1014.5166  0.000e+00
  11430.000   2.926974    21.0334    18.4138    18.4138      0.000  1014.5170  0.000e+00
  11460.000   2.926962    21.0331    18.4141    18.4141      0.000  1014.5167  0.000e+00
  11490.000   2.926986    21.0334    18.4140    18.4140      0.000  1014.5169  0.000e+00
  11520.000   2.927016    21.0333    18.4146    18.4146      0.000  1014.5167  0.000e+00
  11550.000   2.927052    21.0335    18.4148    18.4148      0.000  1014.5168  0.000e+00
  11580.000   2.927076    21.0336    18.4149    18.4149      0.000  1014.5169  0.000e+00
  11610.000   2.927088    21.0334    18.4156    18.4156      0.000  1014.5165  0.000e+00
  11640.000   2.927112    21.0334    18.4160    18.4160      0.000  1014.5165  0.000e+00
  11670.000   2.927136    21.0335    18.4162    18.4162      0.000  1014.5164  0.000e+00
  11700.000   2.927167    21.0335    18.4167    18.4167      0.000  1014.5163  0.000e+00
  11730.000   2.927185    21.0335    18.4169    18.4169      0.000  1014.5163  0.000e+00
  11760.000   2.927233    21.0338    18.4171    18.4171      0.000  1014.5165  0.000e+00
  11790.000   2.927245    21.0335    18.4178    18.4178      0.000  1014.5161  0.000e+00
  11820.000   2.927275    21.0337    18.4179    18.4179      0.000  1014.5163  0.000e+00
  11850.000   2.927281    21.0336    18.4182    18.4182      0.000  1014.5161  0.000e+00
  11880.000   2.927329    21.0337    18.4187    18.4187      0.000  1014.5161  0.000e+00
  11910.000   2.927341    21.0338    18.4187    18.4187      0.000  1014.5161  0.000e+00
  11940.000   2.927347    21.0337    18.4191    18.4191      0.000  1014.5160  0.000e+00
  11970.000   2.927389    21.0339    18.4194    18.4194      0.000  1014.5160  0.000e+00
  12000.000   2.927401    21.0336    18.4200    18.4200      0.000  1014.5157  0.000e+00
  12030.000   2.927443    21.0339    18.4202    18.4202      0.000  1014.5159  0.000e+00
  12060.000   2.927468    21.0340    18.4203    18.4203      0.000  1014.5160  0.000e+00
  12090.000   2.927480    21.0336    18.4212    18.4212      0.000  1014.5155  0.000e+00
  12120.000   2.927492    21.0336    18.4216    18.4216      0.000  1014.5153  0.000e+00
  12150.000   2.927534    21.0338    18.4218    18.4218      0.000  1014.5154  0.000e+00
  12180.000   2.927558    21.0339    18.4218    18.4218      0.000  1014.5155  0.000e+00
  12210.000   2.927576    21.0341    18.4218    18.4218      0.000  1014.5156  0.000e+00
  12240.000   2.927600    21.0338    18.4227    18.4227      0.000  1014.5152  0.000e+00
  12270.000   2.927612    21.0340    18.4225    18.4225      0.000  1014.5155  0.000e+00
  12300.000   2.927648    21.0340    18.4231    18.4231      0.000  1014.5153  0.000e+00
  12330.000   2.927660    21.0337    18.4239    18.4239      0.000  1014.5149  0.000e+00
  12360.000   2.927696    21.0338    18.4243    18.4243      0.000  1014.5148  0.000e+00
  12390.000   2.927720    21.0340    18.4243    18.4243      0.000  1014.5150  0.000e+00
  12420.000   2.927750    21.0339    18.4249    18.4249      0.000  1014.5148  0.000e+00
  12450.000   2.927775    21.0341    18.4249    18.4249      0.000  1014.5150  0.000e+00
  12480.000   2.927793    21.0337    18.4260    18.4260      0.000  1014.5144  0.000e+00
  12510.000   2.927805    21.0339    18.4257    18.4257      0.000  1014.5147  0.000e+00
  12540.000   2.927829    21.0338    18.4263    18.4263      0.000  1014.5144  0.000e+00
  12570.000   2.927859    21.0341    18.4262    18.4262      0.000  1014.5146  0.000e+00
